{
  "resourceType": "Task",
  "id": "ee1b55f8-113c-4725-99a3-25fbad366dd6",
  "contained": [
    {
      "resourceType": "PractitionerRole",
      "id": "16708936-6397-4e03-b84f-4aaa790633e0",
      "identifier": [
        {
          "system": "https://fhir.nhs.uk/Id/sds-role-profile-id",
          "value": "555086415105"
        }
      ],
      "practitioner": {
        "identifier": {
          "system": "https://fhir.nhs.uk/Id/sds-user-id",
          "value": "3415870201"
        },
        "display": "Jackie Clark"
      },
      "organization": {
        "reference": "#organisation"
      },
      "code": [
        {
          "coding": [
            {
              "system": "https://fhir.nhs.uk/CodeSystem/NHSDigital-SDS-JobRoleCode",
              "code": "R8000",
              "display": "Clinical Practitioner Access Role"
            }
          ]
        }
      ],
      "telecom": [
        {
          "system": "phone",
          "use": "work",
          "value": "02380798431"
        }
      ]
    },
    {
      "resourceType": "Organization",
      "id": "organisation",
      "identifier": [
        {
          "system": "https://fhir.nhs.uk/Id/ods-organization-code",
          "value": "VNE51"
        }
      ],
      "address": [
        {
          "city": "West Yorkshire",
          "use": "work",
          "line": [
            "17 Austhorpe Road",
            "Crossgates",
            "Leeds"
          ],
          "postalCode": "LS15 8BA"
        }
      ],
      "active": true,
      "type": [
        {
          "coding": [
            {
              "system": "https://fhir.nhs.uk/CodeSystem/organisation-role",
              "code": "182",
              "display": "PHARMACY"
            }
          ]
        }
      ],
      "name": "The Simple Pharmacy",
      "telecom": [
        {
          "system": "phone",
          "use": "work",
          "value": "0113 3180277"
        }
      ]
    }
  ],
  "identifier": [
    {
      "system": "https://tools.ietf.org/html/rfc4122",
      "value": "add2e9dd-da0a-c266-a4e3-447c68239525"
    }
  ],
  "status": "rejected",
  "intent": "order",
  "groupIdentifier": {
    "system": "https://fhir.nhs.uk/Id/prescription-order-number",
    "value": "18B064-A99968-4BCAA3"
  },
  "code": {
    "coding": [
      {
        "system": "http://hl7.org/fhir/CodeSystem/task-code",
        "code": "abort",
        "display": "Mark the focal resource as no longer active"
      }
    ]
  },
  "focus": {
    "type": "Bundle",
    "identifier": {
      "system": "https://tools.ietf.org/html/rfc4122",
      "value": "67c585f6-f4b5-4f53-861a-50c07ecff5d4"
    }
  },
  "for": {
    "identifier": {
      "system": "https://fhir.nhs.uk/Id/nhs-number",
      "value": "9449304289"
    }
  },
  "authoredOn": "2016-03-10T22:39:32+00:00",
  "owner": {
    "identifier": {
      "system": "https://fhir.nhs.uk/Id/ods-organization-code",
      "value": "VNFKT"
    }
  },
  "statusReason": {
    "coding": [
      {
        "system": "https://fhir.nhs.uk/CodeSystem/EPS-task-dispense-return-status-reason",
        "code": "0002",
        "display": "Unable to dispense medication on prescriptions"
      }
    ]
  },
  "requester": {
    "reference": "#16708936-6397-4e03-b84f-4aaa790633e0"
  }
}