{
    "resourceType": "Bundle",
    "id": "6c91296d-d339-40af-a218-470c3d66b276",
    "identifier": {
        "system": "https://tools.ietf.org/html/rfc4122",
        "value": "a04f3c39-57f5-4d20-a0df-4a5cf56df622"
    },
    "type": "message",
    "entry": [
        {
            "fullUrl": "urn:uuid:6c91296d-d339-40af-a218-470c3d66b276",
            "resource": {
                "resourceType": "MessageHeader",
                "id": "a0628c74-7c4f-4a2a-a170-c6478a5f799c",
                "eventCoding": {
                    "system": "https://fhir.nhs.uk/CodeSystem/message-event",
                    "code": "prescription-order",
                    "display": "Prescription Order"
                },
                "source": {
                    "endpoint": "https://directory.spineservices.nhs.uk/STU3/Organization/694X0"
                },
                "focus": [
                    {
                        "reference": "urn:uuid:5df7a969-b5a3-48e4-a400-60117ffc12c8",
                        "type": "MedicationRequest"
                    },
                    {
                        "reference": "urn:uuid:293cb749-c5d8-4fec-93b9-64c2250674b1",
                        "type": "MedicationRequest"
                    },
                    {
                        "reference": "urn:uuid:0ceba6b5-26b1-4409-aecb-ce44d4e31ff9",
                        "type": "MedicationRequest"
                    },
                    {
                        "reference": "urn:uuid:84746603-c679-4be4-9bb3-c2714d68b801",
                        "type": "MedicationRequest"
                    },
                    {
                        "reference": "urn:uuid:31fdb7b0-2707-4e37-b827-13002edec53b",
                        "type": "Patient"
                    }
                ]
            }
        },
        {
            "fullUrl": "urn:uuid:31fdb7b0-2707-4e37-b827-13002edec53b",
            "resource": {
                "resourceType": "Patient",
                "id": "31fdb7b0-2707-4e37-b827-13002edec53b",
                "identifier": [
                    {
                        "system": "https://fhir.nhs.uk/Id/nhs-number",
                        "value": "9657847419"
                    }
                ],
                "name": [
                    {
                        "use": "usual",
                        "family": "HOMAN",
                        "given": [
                            "Amos Lloyd"
                        ]
                    }
                ],
                "telecom": [
                    {
                        "system": "phone",
                        "value": "07000123123"
                    }
                ],
                "gender": "male",
                "birthDate": "1985-03-12",
                "address": [
                    {
                        "use": "home",
                        "line": [
                            "1 Dalmatian Way",
                            "Broughton",
                            "BRIGG"
                        ],
                        "postalCode": "DN20 0ET"
                    }
                ],
                "generalPractitioner": [
                    {
                        "identifier": {
                            "system": "https://fhir.nhs.uk/Id/ods-organization-code",
                            "value": "A20047"
                        }
                    }
                ]
            }
        },
        {
            "fullUrl": "urn:uuid:16708936-6397-4e03-b84f-4aaa790633e0",
            "resource": {
                "resourceType": "PractitionerRole",
                "id": "16708936-6397-4e03-b84f-4aaa790633e0",
                "identifier": [
                    {
                        "system": "https://fhir.nhs.uk/Id/sds-role-profile-id",
                        "value": "555086415105"
                    }
                ],
                "practitioner": {
                    "identifier": {
                        "system": "https://fhir.hl7.org.uk/Id/gmc-number",
                        "value": "C1231234"
                    },
                    "display": "Jackie Clark"
                },
                "organization": {
                    "identifier": {
                        "system": "https://fhir.nhs.uk/Id/ods-organization-code",
                        "value": "RHM"
                    },
                    "display": "UNIVERSITY HOSPITAL SOUTHAMPTON NHS FOUNDATION TRUST"
                },
                "code": [
                    {
                        "coding": [
                            {
                                "system": "https://fhir.hl7.org.uk/CodeSystem/UKCore-SDSJobRoleName",
                                "code": "R8000"
                            }
                        ]
                    }
                ],
                "location": [
                    {
                        "reference": "urn:uuid:99530dd1-e47b-4b13-b386-c17c99f74b2e"
                    }
                ],
                "healthcareService": [
                    {
                        "identifier": {
                            "use": "usual",
                            "system": "https://fhir.nhs.uk/Id/ods-organization-code",
                            "value": "694X0"
                        },
                        "display": "SOUTHAMPTON GENERAL HOSPITAL LABORATORY"
                    }
                ],
                "telecom": [
                    {
                        "system": "phone",
                        "value": "02380798431",
                        "use": "work"
                    }
                ]
            }
        },
        {
            "fullUrl": "urn:uuid:99530dd1-e47b-4b13-b386-c17c99f74b2e",
            "resource": {
                "resourceType": "Location",
                "id": "99530dd1-e47b-4b13-b386-c17c99f74b2e",
                "status": "active",
                "mode": "instance",
                "address": {
                    "line": [
                        "SOUTHAMPTON GENERAL HOSPITAL",
                        "TREMONA ROAD",
                        "SOUTHAMPTON"
                    ],
                    "postalCode": "SO16 6YD"
                }
            }
        },
        {
            "fullUrl": "urn:uuid:5df7a969-b5a3-48e4-a400-60117ffc12c8",
            "resource": {
                "resourceType": "MedicationRequest",
                "id": "5df7a969-b5a3-48e4-a400-60117ffc12c8",
                "extension": [
                    {
                        "url": "https://fhir.nhs.uk/StructureDefinition/Extension-DM-PrescriptionType",
                        "valueCoding": {
                            "system": "https://fhir.nhs.uk/CodeSystem/prescription-type",
                            "code": "1001",
                            "display": "Outpatient Community Prescriber - Medical Prescriber"
                        }
                    }
                ],
                "identifier": [
                    {
                        "system": "https://fhir.nhs.uk/Id/prescription-order-item-number",
                        "value": "5df7a969-b5a3-48e4-a400-60117ffc12c8"
                    }
                ],
                "status": "active",
                "intent": "order",
                "category": [
                    {
                        "coding": [
                            {
                                "system": "http://terminology.hl7.org/CodeSystem/medicationrequest-category",
                                "code": "outpatient",
                                "display": "Outpatient"
                            }
                        ]
                    }
                ],
                "medicationCodeableConcept": {
                    "coding": [
                        {
                            "system": "http://snomed.info/sct",
                            "code": "4199111000001108",
                            "display": "Clexane 100mg/1ml solution for injection pre-filled syringes (Sanofi)"
                        }
                    ]
                },
                "subject": {
                    "reference": "urn:uuid:31fdb7b0-2707-4e37-b827-13002edec53b"
                },
                "authoredOn": "2021-06-25T14:40:15+01:00",
                "requester": {
                    "reference": "urn:uuid:16708936-6397-4e03-b84f-4aaa790633e0"
                },
                "groupIdentifier": {
                    "extension": [
                        {
                            "url": "https://fhir.nhs.uk/StructureDefinition/Extension-DM-PrescriptionId",
                            "valueIdentifier": {
                                "system": "https://fhir.nhs.uk/Id/prescription",
                                "value": "742bf5d8-e56f-4706-acc9-298b46b76b58"
                            }
                        }
                    ],
                    "system": "https://fhir.nhs.uk/Id/prescription-order-number",
                    "value": "2D5E9C-0694X0-02506O"
                },
                "courseOfTherapyType": {
                    "coding": [
                        {
                            "system": "http://terminology.hl7.org/CodeSystem/medicationrequest-course-of-therapy",
                            "code": "acute",
                            "display": "Short course (acute) therapy"
                        }
                    ]
                },
                "dosageInstruction": [
                    {
                        "text": "test"
                    }
                ],
                "dispenseRequest": {
                    "extension": [
                        {
                            "url": "https://fhir.nhs.uk/StructureDefinition/Extension-DM-PerformerSiteType",
                            "valueCoding": {
                                "system": "https://fhir.nhs.uk/CodeSystem/dispensing-site-preference",
                                "code": "P1",
                                "display": "Other (e.g. Community Pharmacy)"
                            }
                        }
                    ],
                    "quantity": {
                        "value": 10,
                        "unit": "Injection",
                        "system": "http://snomed.info/sct",
                        "code": "3092611000001103"
                    },
                    "performer": {
                        "identifier": {
                            "system": "https://fhir.nhs.uk/Id/ods-organization-code",
                            "value": "FCW64"
                        }
                    }
                },
                "substitution": {
                    "allowedBoolean": false
                }
            }
        },
        {
            "fullUrl": "urn:uuid:293cb749-c5d8-4fec-93b9-64c2250674b1",
            "resource": {
                "resourceType": "MedicationRequest",
                "id": "293cb749-c5d8-4fec-93b9-64c2250674b1",
                "extension": [
                    {
                        "url": "https://fhir.nhs.uk/StructureDefinition/Extension-DM-PrescriptionType",
                        "valueCoding": {
                            "system": "https://fhir.nhs.uk/CodeSystem/prescription-type",
                            "code": "1001",
                            "display": "Outpatient Community Prescriber - Medical Prescriber"
                        }
                    }
                ],
                "identifier": [
                    {
                        "system": "https://fhir.nhs.uk/Id/prescription-order-item-number",
                        "value": "293cb749-c5d8-4fec-93b9-64c2250674b1"
                    }
                ],
                "status": "active",
                "intent": "order",
                "category": [
                    {
                        "coding": [
                            {
                                "system": "http://terminology.hl7.org/CodeSystem/medicationrequest-category",
                                "code": "outpatient",
                                "display": "Outpatient"
                            }
                        ]
                    }
                ],
                "medicationCodeableConcept": {
                    "coding": [
                        {
                            "system": "http://snomed.info/sct",
                            "code": "39024711000001106",
                            "display": "Paracetamol 120mg/5ml oral suspension paediatric sugar free"
                        }
                    ]
                },
                "subject": {
                    "reference": "urn:uuid:31fdb7b0-2707-4e37-b827-13002edec53b"
                },
                "authoredOn": "2021-06-25T14:40:15+01:00",
                "requester": {
                    "reference": "urn:uuid:16708936-6397-4e03-b84f-4aaa790633e0"
                },
                "groupIdentifier": {
                    "extension": [
                        {
                            "url": "https://fhir.nhs.uk/StructureDefinition/Extension-DM-PrescriptionId",
                            "valueIdentifier": {
                                "system": "https://fhir.nhs.uk/Id/prescription",
                                "value": "742bf5d8-e56f-4706-acc9-298b46b76b58"
                            }
                        }
                    ],
                    "system": "https://fhir.nhs.uk/Id/prescription-order-number",
                    "value": "2D5E9C-0694X0-02506O"
                },
                "courseOfTherapyType": {
                    "coding": [
                        {
                            "system": "http://terminology.hl7.org/CodeSystem/medicationrequest-course-of-therapy",
                            "code": "acute",
                            "display": "Short course (acute) therapy"
                        }
                    ]
                },
                "dosageInstruction": [
                    {
                        "text": "test prescription"
                    }
                ],
                "dispenseRequest": {
                    "extension": [
                        {
                            "url": "https://fhir.nhs.uk/StructureDefinition/Extension-DM-PerformerSiteType",
                            "valueCoding": {
                                "system": "https://fhir.nhs.uk/CodeSystem/dispensing-site-preference",
                                "code": "P1",
                                "display": "Other (e.g. Community Pharmacy)"
                            }
                        }
                    ],
                    "quantity": {
                        "value": 200,
                        "unit": "ml",
                        "system": "http://snomed.info/sct",
                        "code": "258773002"
                    },
                    "performer": {
                        "identifier": {
                            "system": "https://fhir.nhs.uk/Id/ods-organization-code",
                            "value": "FCW64"
                        }
                    }
                },
                "substitution": {
                    "allowedBoolean": false
                }
            }
        },
        {
            "fullUrl": "urn:uuid:0ceba6b5-26b1-4409-aecb-ce44d4e31ff9",
            "resource": {
                "resourceType": "MedicationRequest",
                "id": "0ceba6b5-26b1-4409-aecb-ce44d4e31ff9",
                "extension": [
                    {
                        "url": "https://fhir.nhs.uk/StructureDefinition/Extension-DM-PrescriptionType",
                        "valueCoding": {
                            "system": "https://fhir.nhs.uk/CodeSystem/prescription-type",
                            "code": "1001",
                            "display": "Outpatient Community Prescriber - Medical Prescriber"
                        }
                    }
                ],
                "identifier": [
                    {
                        "system": "https://fhir.nhs.uk/Id/prescription-order-item-number",
                        "value": "0ceba6b5-26b1-4409-aecb-ce44d4e31ff9"
                    }
                ],
                "status": "active",
                "intent": "order",
                "category": [
                    {
                        "coding": [
                            {
                                "system": "http://terminology.hl7.org/CodeSystem/medicationrequest-category",
                                "code": "outpatient",
                                "display": "Outpatient"
                            }
                        ]
                    }
                ],
                "medicationCodeableConcept": {
                    "coding": [
                        {
                            "system": "http://snomed.info/sct",
                            "code": "329653008",
                            "display": "Ibuprofen 400mg tablets"
                        }
                    ]
                },
                "subject": {
                    "reference": "urn:uuid:31fdb7b0-2707-4e37-b827-13002edec53b"
                },
                "authoredOn": "2021-06-25T14:40:15+01:00",
                "requester": {
                    "reference": "urn:uuid:16708936-6397-4e03-b84f-4aaa790633e0"
                },
                "groupIdentifier": {
                    "extension": [
                        {
                            "url": "https://fhir.nhs.uk/StructureDefinition/Extension-DM-PrescriptionId",
                            "valueIdentifier": {
                                "system": "https://fhir.nhs.uk/Id/prescription",
                                "value": "742bf5d8-e56f-4706-acc9-298b46b76b58"
                            }
                        }
                    ],
                    "system": "https://fhir.nhs.uk/Id/prescription-order-number",
                    "value": "2D5E9C-0694X0-02506O"
                },
                "courseOfTherapyType": {
                    "coding": [
                        {
                            "system": "http://terminology.hl7.org/CodeSystem/medicationrequest-course-of-therapy",
                            "code": "acute",
                            "display": "Short course (acute) therapy"
                        }
                    ]
                },
                "dosageInstruction": [
                    {
                        "text": "test"
                    }
                ],
                "dispenseRequest": {
                    "extension": [
                        {
                            "url": "https://fhir.nhs.uk/StructureDefinition/Extension-DM-PerformerSiteType",
                            "valueCoding": {
                                "system": "https://fhir.nhs.uk/CodeSystem/dispensing-site-preference",
                                "code": "P1",
                                "display": "Other (e.g. Community Pharmacy)"
                            }
                        }
                    ],
                    "quantity": {
                        "value": 28,
                        "unit": "tablet",
                        "system": "http://snomed.info/sct",
                        "code": "428673006"
                    },
                    "performer": {
                        "identifier": {
                            "system": "https://fhir.nhs.uk/Id/ods-organization-code",
                            "value": "FCW64"
                        }
                    }
                },
                "substitution": {
                    "allowedBoolean": false
                }
            }
        },
        {
            "fullUrl": "urn:uuid:84746603-c679-4be4-9bb3-c2714d68b801",
            "resource": {
                "resourceType": "MedicationRequest",
                "id": "84746603-c679-4be4-9bb3-c2714d68b801",
                "extension": [
                    {
                        "url": "https://fhir.nhs.uk/StructureDefinition/Extension-DM-PrescriptionType",
                        "valueCoding": {
                            "system": "https://fhir.nhs.uk/CodeSystem/prescription-type",
                            "code": "1001",
                            "display": "Outpatient Community Prescriber - Medical Prescriber"
                        }
                    }
                ],
                "identifier": [
                    {
                        "system": "https://fhir.nhs.uk/Id/prescription-order-item-number",
                        "value": "84746603-c679-4be4-9bb3-c2714d68b801"
                    }
                ],
                "status": "active",
                "intent": "order",
                "category": [
                    {
                        "coding": [
                            {
                                "system": "http://terminology.hl7.org/CodeSystem/medicationrequest-category",
                                "code": "outpatient",
                                "display": "Outpatient"
                            }
                        ]
                    }
                ],
                "medicationCodeableConcept": {
                    "coding": [
                        {
                            "system": "http://snomed.info/sct",
                            "code": "373959000",
                            "display": "Fluoxetine 10mg capsules"
                        }
                    ]
                },
                "subject": {
                    "reference": "urn:uuid:31fdb7b0-2707-4e37-b827-13002edec53b"
                },
                "authoredOn": "2021-06-25T14:40:15+01:00",
                "requester": {
                    "reference": "urn:uuid:16708936-6397-4e03-b84f-4aaa790633e0"
                },
                "groupIdentifier": {
                    "extension": [
                        {
                            "url": "https://fhir.nhs.uk/StructureDefinition/Extension-DM-PrescriptionId",
                            "valueIdentifier": {
                                "system": "https://fhir.nhs.uk/Id/prescription",
                                "value": "742bf5d8-e56f-4706-acc9-298b46b76b58"
                            }
                        }
                    ],
                    "system": "https://fhir.nhs.uk/Id/prescription-order-number",
                    "value": "2D5E9C-0694X0-02506O"
                },
                "courseOfTherapyType": {
                    "coding": [
                        {
                            "system": "http://terminology.hl7.org/CodeSystem/medicationrequest-course-of-therapy",
                            "code": "acute",
                            "display": "Short course (acute) therapy"
                        }
                    ]
                },
                "dosageInstruction": [
                    {
                        "text": "test prescription"
                    }
                ],
                "dispenseRequest": {
                    "extension": [
                        {
                            "url": "https://fhir.nhs.uk/StructureDefinition/Extension-DM-PerformerSiteType",
                            "valueCoding": {
                                "system": "https://fhir.nhs.uk/CodeSystem/dispensing-site-preference",
                                "code": "P1",
                                "display": "Other (e.g. Community Pharmacy)"
                            }
                        }
                    ],
                    "quantity": {
                        "value": 1,
                        "unit": "capsule",
                        "system": "http://snomed.info/sct",
                        "code": "428641000"
                    },
                    "performer": {
                        "identifier": {
                            "system": "https://fhir.nhs.uk/Id/ods-organization-code",
                            "value": "FCW64"
                        }
                    }
                },
                "substitution": {
                    "allowedBoolean": false
                }
            }
        },
        {
            "fullUrl": "urn:uuid:1c57f10a-3c4d-4065-a7e8-d52b54434869",
            "resource": {
                "resourceType": "Provenance",
                "id": "1c57f10a-3c4d-4065-a7e8-d52b54434869",
                "target": [
                    {
                        "reference": "urn:uuid:5df7a969-b5a3-48e4-a400-60117ffc12c8",
                        "type": "MedicationRequest"
                    },
                    {
                        "reference": "urn:uuid:293cb749-c5d8-4fec-93b9-64c2250674b1",
                        "type": "MedicationRequest"
                    },
                    {
                        "reference": "urn:uuid:0ceba6b5-26b1-4409-aecb-ce44d4e31ff9",
                        "type": "MedicationRequest"
                    },
                    {
                        "reference": "urn:uuid:84746603-c679-4be4-9bb3-c2714d68b801",
                        "type": "MedicationRequest"
                    }
                ],
                "recorded": "2021-06-25T14:40:19.0843636+01:00",
                "agent": [
                    {
                        "who": {
                            "reference": "urn:uuid:16708936-6397-4e03-b84f-4aaa790633e0",
                            "type": "PractitionerRole"
                        }
                    }
                ],
                "signature": [
                    {
                        "type": [
                            {
                                "system": "urn:iso-astm:E1762-95:2013",
                                "code": "1.2.840.10065.1.12.1.1",
                                "display": "Author's Signature"
                            }
                        ],
                        "when": "2021-06-25T14:40:19.0843636+01:00",
                        "who": {
                            "reference": "urn:uuid:16708936-6397-4e03-b84f-4aaa790633e0",
                            "type": "PractitionerRole"
                        },
                        "data": ""
                    }
                ]
            }
        }
    ]
}
