<Bundle xmlns="http://hl7.org/fhir">
  <id value="mim-example" />
  <identifier>
    <system value="https://tools.ietf.org/html/rfc4122" />
    <value value="f28682c0-50d2-472a-a8f0-477f7ac1b63f" />
  </identifier>
  <type value="message" />
  <entry>
    <fullUrl value="urn:uuid:48b07891-1d81-7b99-3bd2-23e242d2dd44" />
    <resource>
      <MessageHeader>
        <id value="48b07891-1d81-7b99-3bd2-23e242d2dd44" />
        <eventCoding>
          <system value="https://fhir.nhs.uk/CodeSystem/message-event" />
          <code value="prescription-order" />
          <display value="Prescription Order" />
        </eventCoding>
        <sender>
          <reference value="urn:uuid:6dc16793-61c2-44b8-8d0f-f872101c016e" />
          <display value="Dr Smith" />
        </sender>
        <source>
          <name value="PAS" />
          <endpoint value="https://fhir.mynhstrust.nhs.uk/R4" />
        </source>
        <focus>
          <reference value="urn:uuid:1e34ee53-397a-2e70-e97c-67b1bd95014d" />
        </focus>
        <focus>
          <reference value="urn:uuid:791c9a65-5c6a-308b-d700-32d247badb87" />
        </focus>
        <focus>
          <reference value="urn:uuid:c6750caa-3ca9-4f29-a282-6ee1aa5d7d4c" />
        </focus>
        <focus>
          <reference value="urn:uuid:0f314b9f-5233-42e6-aed3-c436bb9ac8ab" />
        </focus>
        <focus>
          <reference value="urn:uuid:6dc16793-61c2-44b8-8d0f-f872101c016e" />
        </focus>
      </MessageHeader>
    </resource>
  </entry>
  <entry>
    <fullUrl value="urn:uuid:1e34ee53-397a-2e70-e97c-67b1bd95014d" />
    <resource>
      <MedicationRequest>
        <id value="1e34ee53-397a-2e70-e97c-67b1bd95014d" />
        <extension xmlns="http://hl7.org/fhir" url="https://fhir.nhs.uk/StructureDefinition/Extension-DM-PrescriptionType">
          <valueCoding>
            <system value="https://fhir.nhs.uk/CodeSystem/prescription-type" />
            <code value="0101" />
            <display value="Primary Care Prescriber – Medical Prescriber" />
          </valueCoding>
        </extension>
        <extension xmlns="http://hl7.org/fhir" url="https://fhir.nhs.uk/StructureDefinition/Extension-DM-ResponsiblePractitioner">
          <valueReference>
            <reference value="urn:uuid:6dc16793-61c2-44b8-8d0f-f872101c016e" />
          </valueReference>
        </extension>
        <identifier>
          <system value="https://fhir.nhs.uk/Id/prescription-order-item-number" />
          <value value="1e34ee53-397a-2e70-e97c-67b1bd95014d" />
        </identifier>
        <status value="active" />
        <intent value="order" />
        <category>
          <coding>
            <system value="http://terminology.hl7.org/CodeSystem/medicationrequest-category"></system>
            <code value="inpatient"></code>
            <display value="Inpatient"></display>
          </coding>
          <text value="Inpatient"></text>
        </category>
        <medicationCodeableConcept>
          <coding>
            <system value="http://snomed.info/sct" />
            <code value="35936511000001108" />
            <display value="Salbutamol 100micrograms/dose inhaler" />
          </coding>
        </medicationCodeableConcept>
        <subject>
          <reference value="urn:uuid:c6750caa-3ca9-4f29-a282-6ee1aa5d7d4c" />
        </subject>
        <authoredOn value="2004-09-20T10:30:00.000+00:00" />
        <requester>
          <reference value="urn:uuid:6dc16793-61c2-44b8-8d0f-f872101c016e" />
          <display value="Dr Smith" />
        </requester>
        <groupIdentifier>
          <extension xmlns="http://hl7.org/fhir" url="https://fhir.nhs.uk/StructureDefinition/Extension-DM-PrescriptionId">
            <valueIdentifier>
              <system value="https://fhir.nhs.uk/Id/prescription" />
              <value value="EDD2E9DD-DA0A-C266-A4E3-447C68239524" />
            </valueIdentifier>
          </extension>
          <system value="https://fhir.nhs.uk/Id/prescription-order-number" />
          <value value="83C40E-A23856-00123C" />
        </groupIdentifier>
        <courseOfTherapyType>
          <coding>
            <system value="http://terminology.hl7.org/CodeSystem/medicationrequest-course-of-therapy"></system>
            <code value="acute" />
            <display value="Short course (acute) therapy" />
          </coding>
        </courseOfTherapyType>
        <dosageInstruction>
          <text value="2 Puffs when required" />
        </dosageInstruction>
        <dispenseRequest>
          <extension xmlns="http://hl7.org/fhir" url="https://fhir.nhs.uk/StructureDefinition/Extension-DM-PerformerSiteType">
            <valueCoding>
              <system value="https://fhir.nhs.uk/CodeSystem/dispensing-site-preference"></system>
              <code value="0004" />
            </valueCoding>
          </extension>
          <quantity>
            <value value="200" />
            <unit value="actuation(s)" />
            <system value="http://snomed.info/sct" />
            <code value="732981002" />
          </quantity>
          <performer>
            <identifier>
              <system value="https://fhir.nhs.uk/Id/ods-organization-code" />
              <value value="Y12345" />
            </identifier>
          </performer>
        </dispenseRequest>
        <substitution>
          <allowedBoolean value="false" />
        </substitution>
      </MedicationRequest>
    </resource>
  </entry>
  <entry>
    <fullUrl value="urn:uuid:791c9a65-5c6a-308b-d700-32d247badb87" />
    <resource>
      <MedicationRequest>
        <id value="791c9a65-5c6a-308b-d700-32d247badb87" />
        <extension xmlns="http://hl7.org/fhir" url="https://fhir.nhs.uk/StructureDefinition/Extension-DM-PrescriptionType">
          <valueCoding>
            <system value="https://fhir.nhs.uk/CodeSystem/prescription-type" />
            <code value="0101" />
            <display value="Primary Care Prescriber – Medical Prescriber" />
          </valueCoding>
        </extension>
        <extension xmlns="http://hl7.org/fhir" url="https://fhir.nhs.uk/StructureDefinition/Extension-DM-ResponsiblePractitioner">
          <valueReference>
            <reference value="urn:uuid:6dc16793-61c2-44b8-8d0f-f872101c016e" />
          </valueReference>
        </extension>
        <identifier>
          <system value="https://fhir.nhs.uk/Id/prescription-order-item-number" />
          <value value="791c9a65-5c6a-308b-d700-32d247badb87" />
        </identifier>
        <status value="active" />
        <intent value="order" />
        <category>
          <coding>
            <system value="http://terminology.hl7.org/CodeSystem/medicationrequest-category"></system>
            <code value="inpatient"></code>
            <display value="Inpatient"></display>
          </coding>
          <text value="Inpatient"></text>
        </category>
        <medicationCodeableConcept>
          <coding>
            <system value="http://snomed.info/sct" />
            <code value="810211000001105" />
            <display value="Seretide 125 Evohaler (GlaxoSmithKline UK Ltd)" />
          </coding>
        </medicationCodeableConcept>
        <subject>
          <reference value="urn:uuid:c6750caa-3ca9-4f29-a282-6ee1aa5d7d4c" />
        </subject>
        <authoredOn value="2004-09-20T10:30:00.000+00:00" />
        <requester>
          <reference value="urn:uuid:6dc16793-61c2-44b8-8d0f-f872101c016e" />
          <display value="Dr Smith" />
        </requester>
        <groupIdentifier>
          <extension xmlns="http://hl7.org/fhir" url="https://fhir.nhs.uk/StructureDefinition/Extension-DM-PrescriptionId">
            <valueIdentifier>
              <system value="https://fhir.nhs.uk/Id/prescription" />
              <value value="urn:uuid:EDD2E9DD-DA0A-C266-A4E3-447C68239524" />
            </valueIdentifier>
          </extension>
          <system value="https://fhir.nhs.uk/Id/prescription-order-number" />
          <value value="83C40E-A23856-00123C" />
        </groupIdentifier>
        <courseOfTherapyType>
          <coding>
            <system value="http://terminology.hl7.org/CodeSystem/medicationrequest-course-of-therapy"></system>
            <code value="acute" />
            <display value="Short course (acute) therapy" />
          </coding>
        </courseOfTherapyType>
        <dosageInstruction>
          <text value="2 Puffs twice daily" />
        </dosageInstruction>
        <dispenseRequest>
          <extension xmlns="http://hl7.org/fhir" url="https://fhir.nhs.uk/StructureDefinition/Extension-DM-PerformerSiteType">
            <valueCoding>
              <system value="https://fhir.nhs.uk/CodeSystem/dispensing-site-preference"></system>
              <code value="0004" />
            </valueCoding>
          </extension>
          <quantity>
            <value value="240" />
            <unit value="actuation(s)" />
            <system value="http://snomed.info/sct" />
            <code value="732981002" />
          </quantity>
          <performer>
            <identifier>
              <system value="https://fhir.nhs.uk/Id/ods-organization-code" />
              <value value="Y12345" />
            </identifier>
          </performer>
        </dispenseRequest>
        <substitution>
          <allowedBoolean value="false" />
        </substitution>
      </MedicationRequest>
    </resource>
  </entry>
  <entry>
    <fullUrl value="urn:uuid:c6750caa-3ca9-4f29-a282-6ee1aa5d7d4c" />
    <resource>
      <Patient>
        <id value="c6750caa-3ca9-4f29-a282-6ee1aa5d7d4c" />
        <identifier>
          <system value="https://fhir.nhs.uk/Id/nhs-number" />
          <value value="9900002717" />
        </identifier>
        <name>
          <use value="official" />
          <family value="Smith" />
          <given value="Frank" />
          <given value="Simon" />
          <prefix value="Mr" />
        </name>
        <gender value="male" />
        <birthDate value="1972-12-07" />
        <address>
          <use value="home" />
          <type value="both" />
          <line value="10, The High Street," />
          <city value="Simple Town" />
          <postalCode value="AA1 1AA" />
        </address>
        <generalPractitioner>
          <identifier>
            <system value="https://fhir.nhs.uk/Id/ods-organization-code" />
            <value value="Y12345" />
            <period>
              <start value="2020-01-01T00:00:00+00:00" />
              <end value="2021-12-31T00:00:00+00:00" />
            </period>
          </identifier>
          <display value="Dr Nice" />
        </generalPractitioner>
      </Patient>
    </resource>
  </entry>
  <entry>
    <fullUrl value="urn:uuid:6dc16793-61c2-44b8-8d0f-f872101c016e" />
    <resource>
      <PractitionerRole xmlns="http://hl7.org/fhir">
        <id value="6dc16793-61c2-44b8-8d0f-f872101c016e" />
        <identifier>
          <system value="https://fhir.nhs.uk/Id/sds-role-profile-id" />
          <value value="125686540025" />
        </identifier>
        <practitioner>
          <identifier>
            <system value="https://fhir.nhs.uk/Id/sds-user-id" />
            <value value="896547302565" />
          </identifier>
          <display value="Dr Smith" />
        </practitioner>
        <organization>
          <identifier>
            <use value="official" />
            <system value="https://fhir.nhs.uk/Id/ods-organization-code" />
            <value value="M85011" />
          </identifier>
          <display value="Mirfleld Surgery" />
        </organization>
        <code>
          <coding>
            <system value="https://fhir.hl7.org.uk/CodeSystem/UKCore-SDSJobRoleName" />
            <code value="R8000" />
          
          </coding>
        </code>
        <location>
          <reference value="urn:uuid:631330c5-2d4f-4683-a14a-c8e0c3c2d760"/>
        </location>
        <telecom>
          <system value="phone" />
          <value value="01234567890" />
          <use value="work" />
        </telecom>
      </PractitionerRole>
    </resource>
  </entry>
  <entry>
    <fullUrl value="urn:uuid:0f314b9f-5233-42e6-aed3-c436bb9ac8ab" />
    <resource>
      <PractitionerRole xmlns="http://hl7.org/fhir">
        <id value="0f314b9f-5233-42e6-aed3-c436bb9ac8ab" />
        <identifier>
          <system value="https://fhir.nhs.uk/Id/sds-role-profile-id" />
          <value value="787946852679" />
        </identifier>
        <practitioner>
          <identifier>
            <system value="https://fhir.nhs.uk/Id/sds-user-id" />
            <value value="777964352001" />
          </identifier>
          <display value="Dr Nice" />
        </practitioner>
        <organization>
          <identifier>
            <use value="official" />
            <system value="https://fhir.nhs.uk/Id/ods-organization-code" />
            <value value="M85011" />
          </identifier>
          <display value="Mirfleld Surgery" />
        </organization>
        <code>
          <coding>
            <system value="https://fhir.hl7.org.uk/CodeSystem/UKCore-SDSJobRoleName" />
            <code value="R8000" />

          </coding>
        </code>
        <location>
          <reference value="urn:uuid:631330c5-2d4f-4683-a14a-c8e0c3c2d760"/>
        </location>
        <telecom>
          <system value="phone" />
          <value value="01234567890" />
          <use value="work" />
        </telecom>
      </PractitionerRole>
    </resource>
  </entry>
  <entry>
    <fullUrl value="urn:uuid:631330c5-2d4f-4683-a14a-c8e0c3c2d760" />
    <resource>
      <Location xmlns="http://hl7.org/fhir">
        <identifier>
          <use value="official" />
          <system value="https://fhir.nhs.uk/Id/ods-organization-code" />
          <value value="M85011" />
        </identifier>
        <address>
          <line value="4 WILLARD RD" />
          <line value="SOUTH YARDLEY" />
          <city value="BIRMINGHAM" />
          <district value="WEST MIDLANDS" />
          <postalCode value="B25 8AA" />
          <country value="ENGLAND" />
        </address>
      </Location>
    </resource>
  </entry>
</Bundle>