{
    "resourceType": "Bundle",
    "id": "75f7464d-1469-4118-b96c-59fb07cdf3f8",
    "identifier": {
        "system": "https://tools.ietf.org/html/rfc4122",
        "value": "75f7464d-1469-4118-b96c-59fb07cdf3f8"
    },
    "type": "message",
    "entry": [
        {
            "fullUrl": "urn:uuid:E9A71955-53BA-B15A-D4B6-BEA99D5017B3",
            "resource": {
                "resourceType": "MessageHeader",
                "eventCoding": {
                    "system": "https://fhir.nhs.uk/CodeSystem/message-event",
                    "code": "dispense-notification",
                    "display": "Dispense Notification"
                },
                "destination": [
                    {
                        "endpoint": "https://sandbox.api.service.nhs.uk/electronic-prescriptions/$post-message",
                        "receiver": {
                            "identifier": {
                                "system": "https://fhir.nhs.uk/Id/ods-organization-code",
                                "value": "T1270"
                            },
                            "display": "PPA"
                        }
                    }
                ],
                "sender": {
                    "identifier": {
                        "system": "https://fhir.nhs.uk/Id/ods-organization-code",
                        "value": "VNE51"
                    },
                    "display": "The Pharmacy System"
                },
                "source": {
                    "name": "The Pharmacy System",
                    "endpoint": "urn:nhs-uk:addressing:ods:VNE51"
                },
                "reason": {
                    "coding": [
                        {
                            "system": "https://fhir.nhs.uk/CodeSystem/message-reason-prescription",
                            "code": "notification",
                            "display": "Notification"
                        }
                    ]
                },
                "response": {
                    "identifier": "6b1d6d0f-f154-48c9-80e5-48f041585185",
                    "code": "ok"
                },
                "focus": [
                    {
                        "reference": "urn:uuid:4509B70D-D8B8-EA03-1105-64557CB54A29"
                    },
                    {
                        "reference": "urn:uuid:06167339-9337-D030-0366-514A6A46DA17"
                    }
                ]
            }
        },
        {
            "fullUrl": "urn:uuid:4509B70D-D8B8-EA03-1105-64557CB54A29",
            "resource": {
                "resourceType": "MedicationDispense",
                "extension": [
                    {
                        "url": "https://fhir.nhs.uk/StructureDefinition/Extension-EPS-TaskBusinessStatus",
                        "valueCoding": {
                            "system": "https://fhir.nhs.uk/CodeSystem/EPS-task-business-status",
                            "code": "0003",
                            "display": "With Dispenser - Active"
                        }
                    }
                ],
                "identifier": [
                    {
                        "system": "https://fhir.nhs.uk/Id/prescription-dispense-item-number",
                        "value": "fd833d33-f128-4fa2-a807-1fc8a7db2658"
                    }
                ],
                "status": "completed",
                "medicationCodeableConcept": {
                    "coding": [
                        {
                            "system": "http://snomed.info/sct",
                            "code": "1858411000001101",
                            "display": "Paracetamol 500mg soluble tablets (Alliance Healthcare (Distribution) Ltd) 60 tablet"
                        }
                    ]
                },
                "subject": {
                    "type": "Patient",
                    "reference": "urn:uuid:bde9eba6-079f-4210-8108-6ea8db58de8c",
                    "display": "Miss Bernie Kanfeld"
                },
                "performer": [
                    {
                        "actor": {
                            "type" : "Practitioner",
                            "identifier":  {
                                "system": "https://fhir.hl7.org.uk/Id/gphc-number",
                                "value": "7654321"
                            },
                            "display": "Mr Peter Potion"
                        }
                    },
                    {
                        "actor": {
                            "type": "Organization",
                            "identifier": {
                                "system": "https://fhir.nhs.uk/Id/ods-organization-code",
                                "value": "AB123"
                            },
                            "display": "The Simple Pharmacy"
                        }
                    }
                ],
                "authorizingPrescription": [
                    {
                        "extension": [
                            {
                                "url": "https://fhir.nhs.uk/StructureDefinition/Extension-DM-GroupIdentifier",
                                "extension": [
                                    {
                                        "url": "shortForm",
                                        "valueIdentifier": {
                                            "system": "https://fhir.nhs.uk/Id/prescription-order-number",
                                            "value": "82D996-C81010-11DB12"
                                        }
                                    },
                                    {
                                        "url": "UUID",
                                        "valueIdentifier": {
                                            "system": "https://fhir.nhs.uk/Id/prescription",
                                            "value": "b2fc79f0-2793-4736-9b2d-0976c21e73a5"
                                        }
                                    }
                                ]
                            }
                        ],
                        "identifier": {
                            "system": "https://fhir.nhs.uk/Id/prescription-order-item-number",
                            "value": "5cb17f5a-11ac-4e18-825f-6470467238b3"
                        }
                    }
                ],
                "type": {
                    "coding": [
                        {
                            "system": "https://fhir.nhs.uk/CodeSystem/medicationdispense-type",
                            "code": "0003",
                            "display": "Item dispensed - partial"
                        }
                    ]
                },
                "quantity": {
                    "value": 60,
                    "unit": "tablet",
                    "system": "http://snomed.info/sct",
                    "code": "732936001"
                },
                "daysSupply": {
                    "value": 15,
                    "unit": "Day",
                    "system": "http://unitsofmeasure.org",
                    "code": "d"
                },
                "whenPrepared": "2020-06-10T16:30:00+00:00",
                "dosageInstruction": [
                    {
                        "text": "100 tablets. One tablet to be taken four times a day",
                        "timing": {
                            "repeat": {
                                "frequency": 5,
                                "period": 1,
                                "periodUnit": "d"
                            }
                        },
                        "route": {
                            "coding": [
                                {
                                    "system": "http://snomed.info/sct",
                                    "code": "26643006",
                                    "display": "Oral"
                                }
                            ]
                        }
                    }
                ]
            }
        },
        {
            "fullUrl": "urn:uuid:06167339-9337-D030-0366-514A6A46DA17",
            "resource": {
                "resourceType": "MedicationDispense",
                "extension": [
                    {
                        "url": "https://fhir.nhs.uk/StructureDefinition/Extension-EPS-TaskBusinessStatus",
                        "valueCoding": {
                            "system": "https://fhir.nhs.uk/CodeSystem/EPS-task-business-status",
                            "code": "0003",
                            "display": "With Dispenser - Active"
                        }
                    }
                ],
                "identifier": [
                    {
                        "system": "https://fhir.nhs.uk/Id/prescription-dispense-item-number",
                        "value": "06167339-9337-D030-0366-514A6A46DA17"
                    }
                ],
                "status": "completed",
                "medicationCodeableConcept": {
                    "coding": [
                        {
                            "system": "http://snomed.info/sct",
                            "code": "3416211000001106",
                            "display": "Salbutamol 100micrograms/dose inhaler (Sandoz Ltd) 200 dose"
                        }
                    ]
                },
                "subject": {
                    "type": "Patient",
                    "reference": "urn:uuid:bde9eba6-079f-4210-8108-6ea8db58de8c",
                    "display": "Miss Bernie Kanfeld"
                },
                "performer": [
                    {
                        "actor": {
                            "type" : "Practitioner",
                            "identifier":  {
                                "system": "https://fhir.hl7.org.uk/Id/gphc-number",
                                "value": "7654321"
                            },
                            "display": "Mr Peter Potion"
                        }
                    },
                    {
                        "actor": {
                            "type": "Organization",
                            "identifier": {
                                "system": "https://fhir.nhs.uk/Id/ods-organization-code",
                                "value": "AB123"
                            },
                            "display": "The Simple Pharmacy"
                        }
                    }
                ],
                "authorizingPrescription": [
                    {
                        "extension": [
                            {
                                "url": "https://fhir.nhs.uk/StructureDefinition/Extension-DM-GroupIdentifier",
                                "extension": [
                                    {
                                        "url": "shortForm",
                                        "valueIdentifier": {
                                            "system": "https://fhir.nhs.uk/Id/prescription-order-number",
                                            "value": "82D996-C81010-11DB12"
                                        }
                                    },
                                    {
                                        "url": "UUID",
                                        "valueIdentifier": {
                                            "system": "https://fhir.nhs.uk/Id/prescription",
                                            "value": "b2fc79f0-2793-4736-9b2d-0976c21e73a5"
                                        }
                                    }
                                ]
                            }
                        ],
                        "identifier": {
                            "system": "https://fhir.nhs.uk/Id/prescription-order-item-number",
                            "value": "5cb17f5a-11ac-4e18-825f-6470467238b3"
                        }
                    }
                ],
                "type": {
                    "coding": [
                        {
                            "system": "https://fhir.nhs.uk/CodeSystem/medicationdispense-type",
                            "code": "0001",
                            "display": "Item fully dispensed"
                        }
                    ]
                },
                "quantity": {
                    "value": 200,
                    "unit": "unit dose",
                    "system": "http://snomed.info/sct",
                    "code": "408102007"
                },
                "daysSupply": {
                    "value": 40,
                    "unit": "Day",
                    "system": "http://unitsofmeasure.org",
                    "code": "d"
                },
                "whenPrepared": "2004-09-16T16:30:00+00:00",
                "dosageInstruction": [
                    {
                        "text": "5 times a day for 40 days",
                        "timing": {
                            "repeat": {
                                "boundsDuration": {
                                    "value": 40,
                                    "unit": "d"
                                },
                                "frequency": 5,
                                "period": 1,
                                "periodUnit": "d"
                            }
                        },
                        "doseAndRate": [
                            {
                                "doseQuantity": {
                                    "value": 1,
                                    "unit": "unit dose",
                                    "system": "http://snomed.info/sct",
                                    "code": "408102007"
                                }
                            }
                        ]
                    }
                ]
            }
        },
        {
            "fullUrl": "urn:uuid:bde9eba6-079f-4210-8108-6ea8db58de8c",
            "resource": {
                "resourceType": "Patient",
                "identifier": [
                    {
                        "extension": [
                            {
                                "url": "https://fhir.hl7.org.uk/StructureDefinition/Extension-UKCore-NHSNumberVerificationStatus",
                                "valueCodeableConcept": {
                                    "coding": [
                                        {
                                            "system": "https://fhir.hl7.org.uk/CodeSystem/UKCore-NHSNumberVerificationStatus",
                                            "code": "01",
                                            "display": "Number present and verified"
                                        }
                                    ]
                                }
                            }
                        ],
                        "system": "https://fhir.nhs.uk/Id/nhs-number",
                        "value": "9876543210"
                    },
                    {
                        "system": "https://fhir.leedsth.nhs.uk/Id/pas-number",
                        "value": "ABC8650149"
                    },
                    {
                        "system": "https://fhir.leedsth.nhs.uk/Id/PPMIdentifier",
                        "value": "1"
                    }
                ],
                "active": true,
                "name": [
                    {
                        "use": "official",
                        "family": "Kanfeld",
                        "given": [
                            "Bernie"
                        ],
                        "prefix": [
                            "Miss"
                        ]
                    }
                ],
                "telecom": [
                    {
                        "system": "phone",
                        "value": "0115 9737320",
                        "use": "home"
                    },
                    {
                        "system": "email",
                        "value": "bernie.kanfeld@nhsdigital.nhs.uk",
                        "use": "home"
                    }
                ],
                "gender": "female",
                "birthDate": "1998-03-13",
                "address": [
                    {
                        "use": "work",
                        "type": "both",
                        "line": [
                            "Field Jardin",
                            "Long Eaton"
                        ],
                        "city": "Nottingham",
                        "district": "Derbyshire",
                        "postalCode": "NG10 1ZZ"
                    }
                ],
                "generalPractitioner": [
                    {
                        "identifier": {
                            "system": "https://fhir.nhs.uk/Id/ods-organization-code",
                            "value": "C81010"
                        }
                    }
                ]
            }
        }
    ]
}
